File: path/Tensile specimen.txt
0.5000 0.5000 0.3000
39.3000 0.5000 0.3000
78.1000 0.5000 0.3000
116.9000 0.5000 0.3000
155.7000 0.5000 0.3000
167.3000 12.5000 0.3000
128.5000 12.5000 0.3000
89.7000 12.5000 0.3000
50.9000 12.5000 0.3000
12.1000 12.5000 0.3000
17.7000 1.3000 0.3000
56.5000 1.3000 0.3000
95.3000 1.3000 0.3000
134.1000 1.3000 0.3000
172.9000 1.3000 0.3000
146.9000 11.7000 0.3000
108.1000 11.7000 0.3000
69.3000 11.7000 0.3000
30.5000 11.7000 0.3000
1.7000 2.2333 0.3000
40.9000 2.1000 0.3000
79.7000 2.1000 0.3000
118.5000 2.1000 0.3000
157.3000 2.1000 0.3000
159.3000 10.9000 0.3000
120.5000 10.9000 0.3000
81.7000 10.9000 0.3000
42.9000 10.9000 0.3000
4.1000 10.9000 0.3000
31.7000 2.9000 0.3000
70.5000 2.9000 0.3000
109.3000 2.9000 0.3000
148.1000 2.9000 0.3000
165.3000 10.1000 0.3000
126.5000 10.1000 0.3000
87.7000 10.1000 0.3000
48.9000 10.1000 0.3000
10.1000 10.1000 0.3000
28.9000 3.7000 0.3000
67.7000 3.7000 0.3000
106.5000 3.7000 0.3000
145.3000 3.7000 0.3000
164.9000 9.3000 0.3000
126.1000 9.3000 0.3000
87.3000 9.3000 0.3000
48.5000 9.3000 0.3000
9.7000 9.3000 0.3000
32.5000 4.5000 0.3000
71.3000 4.5000 0.3000
110.1000 4.5000 0.3000
148.9000 4.5000 0.3000
158.1000 8.5000 0.3000
119.3000 8.5000 0.3000
80.5000 8.5000 0.3000
41.7000 8.5000 0.3000
4.5000 6.9000 0.3000
42.5000 5.3000 0.3000
81.3000 5.3000 0.3000
120.1000 5.3000 0.3000
158.9000 5.3000 0.3000
144.9000 7.7000 0.3000
106.1000 7.7000 0.3000
67.3000 7.7000 0.3000
28.5000 7.7000 0.3000
20.1000 6.1000 0.3000
58.9000 6.1000 0.3000
97.7000 6.1000 0.3000
136.5000 6.1000 0.3000
164.1000 6.9000 0.3000
125.3000 6.9000 0.3000
86.5000 6.9000 0.3000
47.7000 6.9000 0.3000
8.9000 6.9000 0.3000
40.5000 7.3000 0.3000
79.3000 7.3000 0.3000
118.1000 7.3000 0.3000
156.9000 7.3000 0.3000
145.3000 5.7000 0.3000
106.5000 5.7000 0.3000
67.7000 5.7000 0.3000
28.9000 5.7000 0.3000
18.1000 8.1000 0.3000
56.9000 8.1000 0.3000
95.7000 8.1000 0.3000
134.5000 8.1000 0.3000
170.5000 5.3000 0.3000
132.1000 4.9000 0.3000
93.3000 4.9000 0.3000
54.5000 4.9000 0.3000
15.7000 4.9000 0.3000
28.1000 8.9000 0.3000
66.9000 8.9000 0.3000
105.7000 8.9000 0.3000
144.5000 8.9000 0.3000
164.1000 4.1000 0.3000
125.3000 4.1000 0.3000
86.5000 4.1000 0.3000
47.7000 4.1000 0.3000
8.9000 4.1000 0.3000
31.7000 9.7000 0.3000
70.5000 9.7000 0.3000
109.3000 9.7000 0.3000
148.1000 9.7000 0.3000
163.7000 3.3000 0.3000
124.9000 3.3000 0.3000
86.1000 3.3000 0.3000
47.3000 3.3000 0.3000
8.5000 3.3000 0.3000
28.9000 10.5000 0.3000
67.7000 10.5000 0.3000
106.5000 10.5000 0.3000
145.3000 10.5000 0.3000
169.7000 2.5000 0.3000
130.9000 2.5000 0.3000
92.1000 2.5000 0.3000
53.3000 2.5000 0.3000
14.5000 2.5000 0.3000
19.7000 11.3000 0.3000
58.5000 11.3000 0.3000
97.3000 11.3000 0.3000
136.1000 11.3000 0.3000
173.7000 10.1000 0.3000
143.3000 1.7000 0.3000
104.5000 1.7000 0.3000
65.7000 1.7000 0.3000
26.9000 1.7000 0.3000
4.5000 12.1000 0.3000
43.3000 12.1000 0.3000
82.1000 12.1000 0.3000
120.9000 12.1000 0.3000
159.7000 12.1000 0.3000
161.7000 0.9000 0.3000
122.9000 0.9000 0.3000
84.1000 0.9000 0.3000
45.3000 0.9000 0.3000
6.5000 0.9000 0.3000
32.5000 0.5000 0.6000
71.3000 0.5000 0.6000
110.1000 0.5000 0.6000
148.9000 0.5000 0.6000
174.1000 12.5000 0.6000
135.3000 12.5000 0.6000
96.5000 12.5000 0.6000
57.7000 12.5000 0.6000
18.9000 12.5000 0.6000
10.9000 1.3000 0.6000
49.7000 1.3000 0.6000
88.5000 1.3000 0.6000
127.3000 1.3000 0.6000
166.1000 1.3000 0.6000
153.7000 11.7000 0.6000
114.9000 11.7000 0.6000
76.1000 11.7000 0.6000
37.3000 11.7000 0.6000
1.3000 8.9000 0.6000
34.1000 2.1000 0.6000
72.9000 2.1000 0.6000
111.7000 2.1000 0.6000
150.5000 2.1000 0.6000
166.1000 10.9000 0.6000
127.3000 10.9000 0.6000
88.5000 10.9000 0.6000
49.7000 10.9000 0.6000
10.9000 10.9000 0.6000
24.9000 2.9000 0.6000
63.7000 2.9000 0.6000
102.5000 2.9000 0.6000
141.3000 2.9000 0.6000
172.1000 10.1000 0.6000
133.3000 10.1000 0.6000
94.5000 10.1000 0.6000
55.7000 10.1000 0.6000
16.9000 10.1000 0.6000
22.1000 3.7000 0.6000
60.9000 3.7000 0.6000
99.7000 3.7000 0.6000
138.5000 3.7000 0.6000
171.5667 9.1667 0.6000
132.9000 9.3000 0.6000
94.1000 9.3000 0.6000
55.3000 9.3000 0.6000
16.5000 9.3000 0.6000
25.7000 4.5000 0.6000
64.5000 4.5000 0.6000
103.3000 4.5000 0.6000
142.1000 4.5000 0.6000
164.9000 8.5000 0.6000
126.1000 8.5000 0.6000
87.3000 8.5000 0.6000
48.5000 8.5000 0.6000
9.7000 8.5000 0.6000
35.7000 5.3000 0.6000
74.5000 5.3000 0.6000
113.3000 5.3000 0.6000
152.1000 5.3000 0.6000
151.7000 7.7000 0.6000
112.9000 7.7000 0.6000
74.1000 7.7000 0.6000
35.3000 7.7000 0.6000
13.3000 6.1000 0.6000
52.1000 6.1000 0.6000
90.9000 6.1000 0.6000
129.7000 6.1000 0.6000
168.5000 6.1000 0.6000
132.1000 6.9000 0.6000
93.3000 6.9000 0.6000
54.5000 6.9000 0.6000
15.7000 6.9000 0.6000
33.7000 7.3000 0.6000
72.5000 7.3000 0.6000
111.3000 7.3000 0.6000
150.1000 7.3000 0.6000
152.1000 5.7000 0.6000
113.3000 5.7000 0.6000
74.5000 5.7000 0.6000
35.7000 5.7000 0.6000
11.3000 8.1000 0.6000
50.1000 8.1000 0.6000
88.9000 8.1000 0.6000
127.7000 8.1000 0.6000
166.5000 8.1000 0.6000
138.9000 4.9000 0.6000
100.1000 4.9000 0.6000
61.3000 4.9000 0.6000
22.5000 4.9000 0.6000
21.3000 8.9000 0.6000
60.1000 8.9000 0.6000
98.9000 8.9000 0.6000
137.7000 8.9000 0.6000
170.9000 4.1000 0.6000
132.1000 4.1000 0.6000
93.3000 4.1000 0.6000
54.5000 4.1000 0.6000
15.7000 4.1000 0.6000
24.9000 9.7000 0.6000
63.7000 9.7000 0.6000
102.5000 9.7000 0.6000
141.3000 9.7000 0.6000
170.5000 3.3000 0.6000
131.7000 3.3000 0.6000
92.9000 3.3000 0.6000
54.1000 3.3000 0.6000
15.3000 3.3000 0.6000
22.1000 10.5000 0.6000
60.9000 10.5000 0.6000
99.7000 10.5000 0.6000
138.5000 10.5000 0.6000
172.9000 6.1000 0.6000
137.7000 2.5000 0.6000
98.9000 2.5000 0.6000
60.1000 2.5000 0.6000
21.3000 2.5000 0.6000
12.9000 11.3000 0.6000
51.7000 11.3000 0.6000
90.5000 11.3000 0.6000
129.3000 11.3000 0.6000
168.1000 11.3000 0.6000
150.1000 1.7000 0.6000
111.3000 1.7000 0.6000
72.5000 1.7000 0.6000
33.7000 1.7000 0.6000
0.9000 8.9000 0.6000
36.5000 12.1000 0.6000
75.3000 12.1000 0.6000
114.1000 12.1000 0.6000
152.9000 12.1000 0.6000
168.5000 0.9000 0.6000
129.7000 0.9000 0.6000
90.9000 0.9000 0.6000
52.1000 0.9000 0.6000
13.3000 0.9000 0.6000
25.7000 0.5000 0.9000
64.5000 0.5000 0.9000
103.3000 0.5000 0.9000
142.1000 0.5000 0.9000
174.9000 6.5000 0.9000
142.1000 12.5000 0.9000
103.3000 12.5000 0.9000
64.5000 12.5000 0.9000
25.7000 12.5000 0.9000
4.1000 1.3000 0.9000
42.9000 1.3000 0.9000
81.7000 1.3000 0.9000
120.5000 1.3000 0.9000
159.3000 1.3000 0.9000
160.5000 11.7000 0.9000
121.7000 11.7000 0.9000
82.9000 11.7000 0.9000
44.1000 11.7000 0.9000
5.3000 11.7000 0.9000
27.3000 2.1000 0.9000
66.1000 2.1000 0.9000
104.9000 2.1000 0.9000
143.7000 2.1000 0.9000
172.9000 10.9000 0.9000
134.1000 10.9000 0.9000
95.3000 10.9000 0.9000
56.5000 10.9000 0.9000
17.7000 10.9000 0.9000
18.1000 2.9000 0.9000
56.9000 2.9000 0.9000
95.7000 2.9000 0.9000
134.5000 2.9000 0.9000
172.5000 3.7000 0.9000
140.1000 10.1000 0.9000
101.3000 10.1000 0.9000
62.5000 10.1000 0.9000
23.7000 10.1000 0.9000
15.3000 3.7000 0.9000
54.1000 3.7000 0.9000
92.9000 3.7000 0.9000
131.7000 3.7000 0.9000
170.5000 3.7000 0.9000
139.7000 9.3000 0.9000
100.9000 9.3000 0.9000
62.1000 9.3000 0.9000
23.3000 9.3000 0.9000
18.9000 4.5000 0.9000
57.7000 4.5000 0.9000
96.5000 4.5000 0.9000
135.3000 4.5000 0.9000
170.9000 7.7000 0.9000
132.9000 8.5000 0.9000
94.1000 8.5000 0.9000
55.3000 8.5000 0.9000
16.5000 8.5000 0.9000
28.9000 5.3000 0.9000
67.7000 5.3000 0.9000
106.5000 5.3000 0.9000
145.3000 5.3000 0.9000
158.5000 7.7000 0.9000
119.7000 7.7000 0.9000
80.9000 7.7000 0.9000
42.1000 7.7000 0.9000
6.2333 6.1000 0.9000
45.3000 6.1000 0.9000
84.1000 6.1000 0.9000
122.9000 6.1000 0.9000
161.7000 6.1000 0.9000
138.9000 6.9000 0.9000
100.1000 6.9000 0.9000
61.3000 6.9000 0.9000
22.5000 6.9000 0.9000
26.9000 7.3000 0.9000
65.7000 7.3000 0.9000
104.5000 7.3000 0.9000
143.3000 7.3000 0.9000
158.9000 5.7000 0.9000
120.1000 5.7000 0.9000
81.3000 5.7000 0.9000
42.5000 5.7000 0.9000
4.9000 7.7000 0.9000
43.3000 8.1000 0.9000
82.1000 8.1000 0.9000
120.9000 8.1000 0.9000
159.7000 8.1000 0.9000
145.7000 4.9000 0.9000
106.9000 4.9000 0.9000
68.1000 4.9000 0.9000
29.3000 4.9000 0.9000
14.5000 8.9000 0.9000
53.3000 8.9000 0.9000
92.1000 8.9000 0.9000
130.9000 8.9000 0.9000
169.7000 8.9000 0.9000
138.9000 4.1000 0.9000
100.1000 4.1000 0.9000
61.3000 4.1000 0.9000
22.5000 4.1000 0.9000
18.1000 9.7000 0.9000
56.9000 9.7000 0.9000
95.7000 9.7000 0.9000
134.5000 9.7000 0.9000
172.1000 8.5000 0.9000
138.5000 3.3000 0.9000
99.7000 3.3000 0.9000
60.9000 3.3000 0.9000
22.1000 3.3000 0.9000
15.3000 10.5000 0.9000
54.1000 10.5000 0.9000
92.9000 10.5000 0.9000
131.7000 10.5000 0.9000
170.5000 10.5000 0.9000
144.5000 2.5000 0.9000
105.7000 2.5000 0.9000
66.9000 2.5000 0.9000
28.1000 2.5000 0.9000
6.1000 11.3000 0.9000
44.9000 11.3000 0.9000
83.7000 11.3000 0.9000
122.5000 11.3000 0.9000
161.3000 11.3000 0.9000
156.9000 1.7000 0.9000
118.1000 1.7000 0.9000
79.3000 1.7000 0.9000
40.5000 1.7000 0.9000
1.3000 2.1000 0.9000
29.7000 12.1000 0.9000
68.5000 12.1000 0.9000
107.3000 12.1000 0.9000
146.1000 12.1000 0.9000
174.5000 1.7000 0.9000
136.5000 0.9000 0.9000
97.7000 0.9000 0.9000
58.9000 0.9000 0.9000
20.1000 0.9000 0.9000
18.9000 0.5000 1.2000
57.7000 0.5000 1.2000
96.5000 0.5000 1.2000
135.3000 0.5000 1.2000
174.1000 0.5000 1.2000
148.9000 12.5000 1.2000
110.1000 12.5000 1.2000
71.3000 12.5000 1.2000
32.5000 12.5000 1.2000
0.5000 5.7000 1.2000
36.1000 1.3000 1.2000
74.9000 1.3000 1.2000
113.7000 1.3000 1.2000
152.5000 1.3000 1.2000
167.3000 11.7000 1.2000
128.5000 11.7000 1.2000
89.7000 11.7000 1.2000
50.9000 11.7000 1.2000
12.1000 11.7000 1.2000
20.5000 2.1000 1.2000
59.3000 2.1000 1.2000
98.1000 2.1000 1.2000
136.9000 2.1000 1.2000
173.3000 4.5000 1.2000
140.9000 10.9000 1.2000
102.1000 10.9000 1.2000
63.3000 10.9000 1.2000
24.5000 10.9000 1.2000
11.3000 2.9000 1.2000
50.1000 2.9000 1.2000
88.9000 2.9000 1.2000
127.7000 2.9000 1.2000
166.5000 2.9000 1.2000
146.9000 10.1000 1.2000
108.1000 10.1000 1.2000
69.3000 10.1000 1.2000
30.5000 10.1000 1.2000
8.5000 3.7000 1.2000
47.3000 3.7000 1.2000
86.1000 3.7000 1.2000
124.9000 3.7000 1.2000
163.7000 3.7000 1.2000
146.5000 9.3000 1.2000
107.7000 9.3000 1.2000
68.9000 9.3000 1.2000
30.1000 9.3000 1.2000
12.1000 4.5000 1.2000
50.9000 4.5000 1.2000
89.7000 4.5000 1.2000
128.5000 4.5000 1.2000
167.3000 4.5000 1.2000
139.7000 8.5000 1.2000
100.9000 8.5000 1.2000
62.1000 8.5000 1.2000
23.3000 8.5000 1.2000
22.1000 5.3000 1.2000
60.9000 5.3000 1.2000
99.7000 5.3000 1.2000
138.5000 5.3000 1.2000
165.3000 7.7000 1.2000
126.5000 7.7000 1.2000
87.7000 7.7000 1.2000
48.9000 7.7000 1.2000
10.1000 7.7000 1.2000
38.5000 6.1000 1.2000
77.3000 6.1000 1.2000
116.1000 6.1000 1.2000
154.9000 6.1000 1.2000
145.7000 6.9000 1.2000
106.9000 6.9000 1.2000
68.1000 6.9000 1.2000
29.3000 6.9000 1.2000
20.1000 7.3000 1.2000
58.9000 7.3000 1.2000
97.7000 7.3000 1.2000
136.5000 7.3000 1.2000
165.7000 5.7000 1.2000
126.9000 5.7000 1.2000
88.1000 5.7000 1.2000
49.3000 5.7000 1.2000
10.5000 5.7000 1.2000
36.5000 8.1000 1.2000
75.3000 8.1000 1.2000
114.1000 8.1000 1.2000
152.9000 8.1000 1.2000
152.5000 4.9000 1.2000
113.7000 4.9000 1.2000
74.9000 4.9000 1.2000
36.1000 4.9000 1.2000
7.7000 8.9000 1.2000
46.5000 8.9000 1.2000
85.3000 8.9000 1.2000
124.1000 8.9000 1.2000
162.9000 8.9000 1.2000
145.7000 4.1000 1.2000
106.9000 4.1000 1.2000
68.1000 4.1000 1.2000
29.3000 4.1000 1.2000
11.3000 9.7000 1.2000
50.1000 9.7000 1.2000
88.9000 9.7000 1.2000
127.7000 9.7000 1.2000
166.5000 9.7000 1.2000
145.3000 3.3000 1.2000
106.5000 3.3000 1.2000
67.7000 3.3000 1.2000
28.9000 3.3000 1.2000
8.5000 10.5000 1.2000
47.3000 10.5000 1.2000
86.1000 10.5000 1.2000
124.9000 10.5000 1.2000
163.7000 10.5000 1.2000
151.3000 2.5000 1.2000
112.5000 2.5000 1.2000
73.7000 2.5000 1.2000
34.9000 2.5000 1.2000
1.7000 8.9000 1.2000
38.1000 11.3000 1.2000
76.9000 11.3000 1.2000
115.7000 11.3000 1.2000
154.5000 11.3000 1.2000
163.7000 1.7000 1.2000
124.9000 1.7000 1.2000
86.1000 1.7000 1.2000
47.3000 1.7000 1.2000
8.5000 1.7000 1.2000
22.9000 12.1000 1.2000
61.7000 12.1000 1.2000
100.5000 12.1000 1.2000
139.3000 12.1000 1.2000
174.5000 8.5000 1.2000
143.3000 0.9000 1.2000
104.5000 0.9000 1.2000
65.7000 0.9000 1.2000
26.9000 0.9000 1.2000
12.1000 0.5000 1.5000
50.9000 0.5000 1.5000
89.7000 0.5000 1.5000
128.5000 0.5000 1.5000
167.3000 0.5000 1.5000
155.7000 12.5000 1.5000
116.9000 12.5000 1.5000
78.1000 12.5000 1.5000
39.3000 12.5000 1.5000
0.6333 12.3667 1.5000
29.3000 1.3000 1.5000
68.1000 1.3000 1.5000
106.9000 1.3000 1.5000
145.7000 1.3000 1.5000
173.9667 11.5667 1.5000
135.3000 11.7000 1.5000
96.5000 11.7000 1.5000
57.7000 11.7000 1.5000
18.9000 11.7000 1.5000
13.7000 2.1000 1.5000
52.5000 2.1000 1.5000
91.3000 2.1000 1.5000
130.1000 2.1000 1.5000
168.9000 2.1000 1.5000
147.7000 10.9000 1.5000
108.9000 10.9000 1.5000
70.1000 10.9000 1.5000
31.3000 10.9000 1.5000
4.5000 2.9000 1.5000
43.3000 2.9000 1.5000
82.1000 2.9000 1.5000
120.9000 2.9000 1.5000
159.7000 2.9000 1.5000
153.7000 10.1000 1.5000
114.9000 10.1000 1.5000
76.1000 10.1000 1.5000
37.3000 10.1000 1.5000
2.9000 5.7000 1.5000
40.5000 3.7000 1.5000
79.3000 3.7000 1.5000
118.1000 3.7000 1.5000
156.9000 3.7000 1.5000
153.3000 9.3000 1.5000
114.5000 9.3000 1.5000
75.7000 9.3000 1.5000
36.9000 9.3000 1.5000
5.3000 4.5000 1.5000
44.1000 4.5000 1.5000
82.9000 4.5000 1.5000
121.7000 4.5000 1.5000
160.5000 4.5000 1.5000
146.5000 8.5000 1.5000
107.7000 8.5000 1.5000
68.9000 8.5000 1.5000
30.1000 8.5000 1.5000
15.3000 5.3000 1.5000
54.1000 5.3000 1.5000
92.9000 5.3000 1.5000
131.7000 5.3000 1.5000
170.1000 5.7000 1.5000
133.3000 7.7000 1.5000
94.5000 7.7000 1.5000
55.7000 7.7000 1.5000
16.9000 7.7000 1.5000
31.7000 6.1000 1.5000
70.5000 6.1000 1.5000
109.3000 6.1000 1.5000
148.1000 6.1000 1.5000
152.5000 6.9000 1.5000
113.7000 6.9000 1.5000
74.9000 6.9000 1.5000
36.1000 6.9000 1.5000
13.3000 7.3000 1.5000
52.1000 7.3000 1.5000
90.9000 7.3000 1.5000
129.7000 7.3000 1.5000
168.5000 7.3000 1.5000
133.7000 5.7000 1.5000
94.9000 5.7000 1.5000
56.1000 5.7000 1.5000
17.3000 5.7000 1.5000
29.7000 8.1000 1.5000
68.5000 8.1000 1.5000
107.3000 8.1000 1.5000
146.1000 8.1000 1.5000
159.3000 4.9000 1.5000
120.5000 4.9000 1.5000
81.7000 4.9000 1.5000
42.9000 4.9000 1.5000
4.1000 5.7000 1.5000
39.7000 8.9000 1.5000
78.5000 8.9000 1.5000
117.3000 8.9000 1.5000
156.1000 8.9000 1.5000
152.5000 4.1000 1.5000
113.7000 4.1000 1.5000
74.9000 4.1000 1.5000
36.1000 4.1000 1.5000
4.5000 9.7000 1.5000
43.3000 9.7000 1.5000
82.1000 9.7000 1.5000
120.9000 9.7000 1.5000
159.7000 9.7000 1.5000
152.1000 3.3000 1.5000
113.3000 3.3000 1.5000
74.5000 3.3000 1.5000
35.7000 3.3000 1.5000
2.5000 9.7000 1.5000
40.5000 10.5000 1.5000
79.3000 10.5000 1.5000
118.1000 10.5000 1.5000
156.9000 10.5000 1.5000
158.1000 2.5000 1.5000
119.3000 2.5000 1.5000
80.5000 2.5000 1.5000
41.7000 2.5000 1.5000
2.6333 2.5000 1.5000
31.3000 11.3000 1.5000
70.1000 11.3000 1.5000
108.9000 11.3000 1.5000
147.7000 11.3000 1.5000
170.5000 1.7000 1.5000
131.7000 1.7000 1.5000
92.9000 1.7000 1.5000
54.1000 1.7000 1.5000
15.3000 1.7000 1.5000
16.1000 12.1000 1.5000
54.9000 12.1000 1.5000
93.7000 12.1000 1.5000
132.5000 12.1000 1.5000
171.3000 12.1000 1.5000
150.1000 0.9000 1.5000
111.3000 0.9000 1.5000
72.5000 0.9000 1.5000
33.7000 0.9000 1.5000
5.3000 0.5000 1.8000
44.1000 0.5000 1.8000
82.9000 0.5000 1.8000
121.7000 0.5000 1.8000
160.5000 0.5000 1.8000
162.5000 12.5000 1.8000
123.7000 12.5000 1.8000
84.9000 12.5000 1.8000
46.1000 12.5000 1.8000
7.3000 12.5000 1.8000
22.5000 1.3000 1.8000
61.3000 1.3000 1.8000
100.1000 1.3000 1.8000
138.9000 1.3000 1.8000
174.1000 4.9000 1.8000
142.1000 11.7000 1.8000
103.3000 11.7000 1.8000
64.5000 11.7000 1.8000
25.7000 11.7000 1.8000
6.9000 2.1000 1.8000
45.7000 2.1000 1.8000
84.5000 2.1000 1.8000
123.3000 2.1000 1.8000
162.1000 2.1000 1.8000
154.5000 10.9000 1.8000
115.7000 10.9000 1.8000
76.9000 10.9000 1.8000
38.1000 10.9000 1.8000
2.1000 8.1000 1.8000
36.5000 2.9000 1.8000
75.3000 2.9000 1.8000
114.1000 2.9000 1.8000
152.9000 2.9000 1.8000
160.5000 10.1000 1.8000
121.7000 10.1000 1.8000
82.9000 10.1000 1.8000
44.1000 10.1000 1.8000
5.3000 10.1000 1.8000
33.7000 3.7000 1.8000
72.5000 3.7000 1.8000
111.3000 3.7000 1.8000
150.1000 3.7000 1.8000
160.1000 9.3000 1.8000
121.3000 9.3000 1.8000
82.5000 9.3000 1.8000
43.7000 9.3000 1.8000
4.9000 9.3000 1.8000
37.3000 4.5000 1.8000
76.1000 4.5000 1.8000
114.9000 4.5000 1.8000
153.7000 4.5000 1.8000
153.3000 8.5000 1.8000
114.5000 8.5000 1.8000
75.7000 8.5000 1.8000
36.9000 8.5000 1.8000
8.5000 5.3000 1.8000
47.3000 5.3000 1.8000
86.1000 5.3000 1.8000
124.9000 5.3000 1.8000
163.7000 5.3000 1.8000
140.1000 7.7000 1.8000
101.3000 7.7000 1.8000
62.5000 7.7000 1.8000
23.7000 7.7000 1.8000
24.9000 6.1000 1.8000
63.7000 6.1000 1.8000
102.5000 6.1000 1.8000
141.3000 6.1000 1.8000
159.3000 6.9000 1.8000
120.5000 6.9000 1.8000
81.7000 6.9000 1.8000
42.9000 6.9000 1.8000
6.5000 7.3000 1.8000
45.3000 7.3000 1.8000
84.1000 7.3000 1.8000
122.9000 7.3000 1.8000
161.7000 7.3000 1.8000
140.5000 5.7000 1.8000
101.7000 5.7000 1.8000
62.9000 5.7000 1.8000
24.1000 5.7000 1.8000
22.9000 8.1000 1.8000
61.7000 8.1000 1.8000
100.5000 8.1000 1.8000
139.3000 8.1000 1.8000
166.1000 4.9000 1.8000
127.3000 4.9000 1.8000
88.5000 4.9000 1.8000
49.7000 4.9000 1.8000
10.9000 4.9000 1.8000
32.9000 8.9000 1.8000
71.7000 8.9000 1.8000
110.5000 8.9000 1.8000
149.3000 8.9000 1.8000
159.3000 4.1000 1.8000
120.5000 4.1000 1.8000
81.7000 4.1000 1.8000
42.9000 4.1000 1.8000
3.7000 4.2333 1.8000
36.5000 9.7000 1.8000
75.3000 9.7000 1.8000
114.1000 9.7000 1.8000
152.9000 9.7000 1.8000
158.9000 3.3000 1.8000
120.1000 3.3000 1.8000
81.3000 3.3000 1.8000
42.5000 3.3000 1.8000
3.4333 3.3000 1.8000
33.7000 10.5000 1.8000
72.5000 10.5000 1.8000
111.3000 10.5000 1.8000
150.1000 10.5000 1.8000
164.9000 2.5000 1.8000
126.1000 2.5000 1.8000
87.3000 2.5000 1.8000
48.5000 2.5000 1.8000
9.7000 2.5000 1.8000
24.5000 11.3000 1.8000
63.3000 11.3000 1.8000
102.1000 11.3000 1.8000
140.9000 11.3000 1.8000
173.7000 5.3000 1.8000
138.5000 1.7000 1.8000
99.7000 1.7000 1.8000
60.9000 1.7000 1.8000
22.1000 1.7000 1.8000
9.3000 12.1000 1.8000
48.1000 12.1000 1.8000
86.9000 12.1000 1.8000
125.7000 12.1000 1.8000
164.5000 12.1000 1.8000
156.9000 0.9000 1.8000
118.1000 0.9000 1.8000
79.3000 0.9000 1.8000
40.5000 0.9000 1.8000
1.7000 0.9000 1.8000
37.3000 0.5000 2.1000
76.1000 0.5000 2.1000
114.9000 0.5000 2.1000
153.7000 0.5000 2.1000
169.3000 12.5000 2.1000
130.5000 12.5000 2.1000
91.7000 12.5000 2.1000
52.9000 12.5000 2.1000
14.1000 12.5000 2.1000
15.7000 1.3000 2.1000
54.5000 1.3000 2.1000
93.3000 1.3000 2.1000
132.1000 1.3000 2.1000
170.9000 1.3000 2.1000
148.9000 11.7000 2.1000
110.1000 11.7000 2.1000
71.3000 11.7000 2.1000
32.5000 11.7000 2.1000
1.3000 4.1000 2.1000
38.9000 2.1000 2.1000
77.7000 2.1000 2.1000
116.5000 2.1000 2.1000
155.3000 2.1000 2.1000
161.3000 10.9000 2.1000
122.5000 10.9000 2.1000
83.7000 10.9000 2.1000
44.9000 10.9000 2.1000
6.1000 10.9000 2.1000
29.7000 2.9000 2.1000
68.5000 2.9000 2.1000
107.3000 2.9000 2.1000
146.1000 2.9000 2.1000
167.3000 10.1000 2.1000
128.5000 10.1000 2.1000
89.7000 10.1000 2.1000
50.9000 10.1000 2.1000
12.1000 10.1000 2.1000
26.9000 3.7000 2.1000
65.7000 3.7000 2.1000
104.5000 3.7000 2.1000
143.3000 3.7000 2.1000
166.9000 9.3000 2.1000
128.1000 9.3000 2.1000
89.3000 9.3000 2.1000
50.5000 9.3000 2.1000
11.7000 9.3000 2.1000
30.5000 4.5000 2.1000
69.3000 4.5000 2.1000
108.1000 4.5000 2.1000
146.9000 4.5000 2.1000
160.1000 8.5000 2.1000
121.3000 8.5000 2.1000
82.5000 8.5000 2.1000
43.7000 8.5000 2.1000
4.9000 8.5000 2.1000
40.5000 5.3000 2.1000
79.3000 5.3000 2.1000
118.1000 5.3000 2.1000
156.9000 5.3000 2.1000
146.9000 7.7000 2.1000
108.1000 7.7000 2.1000
69.3000 7.7000 2.1000
30.5000 7.7000 2.1000
18.1000 6.1000 2.1000
56.9000 6.1000 2.1000
95.7000 6.1000 2.1000
134.5000 6.1000 2.1000
166.1000 6.9000 2.1000
127.3000 6.9000 2.1000
88.5000 6.9000 2.1000
49.7000 6.9000 2.1000
10.9000 6.9000 2.1000
38.5000 7.3000 2.1000
77.3000 7.3000 2.1000
116.1000 7.3000 2.1000
154.9000 7.3000 2.1000
147.3000 5.7000 2.1000
108.5000 5.7000 2.1000
69.7000 5.7000 2.1000
30.9000 5.7000 2.1000
16.1000 8.1000 2.1000
54.9000 8.1000 2.1000
93.7000 8.1000 2.1000
132.5000 8.1000 2.1000
170.5000 7.3000 2.1000
134.1000 4.9000 2.1000
95.3000 4.9000 2.1000
56.5000 4.9000 2.1000
17.7000 4.9000 2.1000
26.1000 8.9000 2.1000
64.9000 8.9000 2.1000
103.7000 8.9000 2.1000
142.5000 8.9000 2.1000
166.1000 4.1000 2.1000
127.3000 4.1000 2.1000
88.5000 4.1000 2.1000
49.7000 4.1000 2.1000
10.9000 4.1000 2.1000
29.7000 9.7000 2.1000
68.5000 9.7000 2.1000
107.3000 9.7000 2.1000
146.1000 9.7000 2.1000
165.7000 3.3000 2.1000
126.9000 3.3000 2.1000
88.1000 3.3000 2.1000
49.3000 3.3000 2.1000
10.5000 3.3000 2.1000
26.9000 10.5000 2.1000
65.7000 10.5000 2.1000
104.5000 10.5000 2.1000
143.3000 10.5000 2.1000
171.7000 2.5000 2.1000
132.9000 2.5000 2.1000
94.1000 2.5000 2.1000
55.3000 2.5000 2.1000
16.5000 2.5000 2.1000
17.7000 11.3000 2.1000
56.5000 11.3000 2.1000
95.3000 11.3000 2.1000
134.1000 11.3000 2.1000
172.9000 11.3000 2.1000
145.3000 1.7000 2.1000
106.5000 1.7000 2.1000
67.7000 1.7000 2.1000
28.9000 1.7000 2.1000
2.5000 12.1000 2.1000
41.3000 12.1000 2.1000
80.1000 12.1000 2.1000
118.9000 12.1000 2.1000
157.7000 12.1000 2.1000
163.7000 0.9000 2.1000
124.9000 0.9000 2.1000
86.1000 0.9000 2.1000
47.3000 0.9000 2.1000
8.5000 0.9000 2.1000
30.5000 0.5000 2.4000
69.3000 0.5000 2.4000
108.1000 0.5000 2.4000
146.9000 0.5000 2.4000
174.9000 11.3000 2.4000
137.3000 12.5000 2.4000
98.5000 12.5000 2.4000
59.7000 12.5000 2.4000
20.9000 12.5000 2.4000
8.9000 1.3000 2.4000
47.7000 1.3000 2.4000
86.5000 1.3000 2.4000
125.3000 1.3000 2.4000
164.1000 1.3000 2.4000
155.7000 11.7000 2.4000
116.9000 11.7000 2.4000
78.1000 11.7000 2.4000
39.3000 11.7000 2.4000
1.3000 10.9000 2.4000
32.1000 2.1000 2.4000
70.9000 2.1000 2.4000
109.7000 2.1000 2.4000
148.5000 2.1000 2.4000
168.1000 10.9000 2.4000
129.3000 10.9000 2.4000
90.5000 10.9000 2.4000
51.7000 10.9000 2.4000
12.9000 10.9000 2.4000
22.9000 2.9000 2.4000
61.7000 2.9000 2.4000
100.5000 2.9000 2.4000
139.3000 2.9000 2.4000
172.5000 8.5000 2.4000
135.3000 10.1000 2.4000
96.5000 10.1000 2.4000
57.7000 10.1000 2.4000
18.9000 10.1000 2.4000
20.1000 3.7000 2.4000
58.9000 3.7000 2.4000
97.7000 3.7000 2.4000
136.5000 3.7000 2.4000
171.7000 7.3000 2.4000
134.9000 9.3000 2.4000
96.1000 9.3000 2.4000
57.3000 9.3000 2.4000
18.5000 9.3000 2.4000
23.7000 4.5000 2.4000
62.5000 4.5000 2.4000
101.3000 4.5000 2.4000
140.1000 4.5000 2.4000
166.9000 8.5000 2.4000
128.1000 8.5000 2.4000
89.3000 8.5000 2.4000
50.5000 8.5000 2.4000
11.7000 8.5000 2.4000
33.7000 5.3000 2.4000
72.5000 5.3000 2.4000
111.3000 5.3000 2.4000
150.1000 5.3000 2.4000
153.7000 7.7000 2.4000
114.9000 7.7000 2.4000
76.1000 7.7000 2.4000
37.3000 7.7000 2.4000
11.3000 6.1000 2.4000
50.1000 6.1000 2.4000
88.9000 6.1000 2.4000
127.7000 6.1000 2.4000
166.5000 6.1000 2.4000
134.1000 6.9000 2.4000
95.3000 6.9000 2.4000
56.5000 6.9000 2.4000
17.7000 6.9000 2.4000
31.7000 7.3000 2.4000
70.5000 7.3000 2.4000
109.3000 7.3000 2.4000
148.1000 7.3000 2.4000
154.1000 5.7000 2.4000
115.3000 5.7000 2.4000
76.5000 5.7000 2.4000
37.7000 5.7000 2.4000
9.3000 8.1000 2.4000
48.1000 8.1000 2.4000
86.9000 8.1000 2.4000
125.7000 8.1000 2.4000
164.5000 8.1000 2.4000
140.9000 4.9000 2.4000
102.1000 4.9000 2.4000
63.3000 4.9000 2.4000
24.5000 4.9000 2.4000
19.3000 8.9000 2.4000
58.1000 8.9000 2.4000
96.9000 8.9000 2.4000
135.7000 8.9000 2.4000
171.3000 5.7000 2.4000
134.1000 4.1000 2.4000
95.3000 4.1000 2.4000
56.5000 4.1000 2.4000
17.7000 4.1000 2.4000
22.9000 9.7000 2.4000
61.7000 9.7000 2.4000
100.5000 9.7000 2.4000
139.3000 9.7000 2.4000
172.1000 3.7000 2.4000
133.7000 3.3000 2.4000
94.9000 3.3000 2.4000
56.1000 3.3000 2.4000
17.3000 3.3000 2.4000
20.1000 10.5000 2.4000
58.9000 10.5000 2.4000
97.7000 10.5000 2.4000
136.5000 10.5000 2.4000
172.9000 8.1000 2.4000
139.7000 2.5000 2.4000
100.9000 2.5000 2.4000
62.1000 2.5000 2.4000
23.3000 2.5000 2.4000
10.9000 11.3000 2.4000
49.7000 11.3000 2.4000
88.5000 11.3000 2.4000
127.3000 11.3000 2.4000
166.1000 11.3000 2.4000
152.1000 1.7000 2.4000
113.3000 1.7000 2.4000
74.5000 1.7000 2.4000
35.7000 1.7000 2.4000
0.9000 6.9000 2.4000
34.5000 12.1000 2.4000
73.3000 12.1000 2.4000
112.1000 12.1000 2.4000
150.9000 12.1000 2.4000
170.5000 0.9000 2.4000
131.7000 0.9000 2.4000
92.9000 0.9000 2.4000
54.1000 0.9000 2.4000
15.3000 0.9000 2.4000
23.7000 0.5000 2.7000
62.5000 0.5000 2.7000
101.3000 0.5000 2.7000
140.1000 0.5000 2.7000
174.9000 4.5000 2.7000
144.1000 12.5000 2.7000
105.3000 12.5000 2.7000
66.5000 12.5000 2.7000
27.7000 12.5000 2.7000
2.1000 1.3000 2.7000
40.9000 1.3000 2.7000
79.7000 1.3000 2.7000
118.5000 1.3000 2.7000
157.3000 1.3000 2.7000
162.5000 11.7000 2.7000
123.7000 11.7000 2.7000
84.9000 11.7000 2.7000
46.1000 11.7000 2.7000
7.3000 11.7000 2.7000
25.3000 2.1000 2.7000
64.1000 2.1000 2.7000
102.9000 2.1000 2.7000
141.7000 2.1000 2.7000
173.3000 9.3000 2.7000
136.1000 10.9000 2.7000
97.3000 10.9000 2.7000
58.5000 10.9000 2.7000
19.7000 10.9000 2.7000
16.1000 2.9000 2.7000
54.9000 2.9000 2.7000
93.7000 2.9000 2.7000
132.5000 2.9000 2.7000
171.3000 2.9000 2.7000
142.1000 10.1000 2.7000
103.3000 10.1000 2.7000
64.5000 10.1000 2.7000
25.7000 10.1000 2.7000
13.3000 3.7000 2.7000
52.1000 3.7000 2.7000
90.9000 3.7000 2.7000
129.7000 3.7000 2.7000
168.5000 3.7000 2.7000
141.7000 9.3000 2.7000
102.9000 9.3000 2.7000
64.1000 9.3000 2.7000
25.3000 9.3000 2.7000
16.9000 4.5000 2.7000
55.7000 4.5000 2.7000
94.5000 4.5000 2.7000
133.3000 4.5000 2.7000
170.9000 5.7000 2.7000
134.9000 8.5000 2.7000
96.1000 8.5000 2.7000
57.3000 8.5000 2.7000
18.5000 8.5000 2.7000
26.9000 5.3000 2.7000
65.7000 5.3000 2.7000
104.5000 5.3000 2.7000
143.3000 5.3000 2.7000
160.5000 7.7000 2.7000
121.7000 7.7000 2.7000
82.9000 7.7000 2.7000
44.1000 7.7000 2.7000
5.4333 7.5667 2.7000
43.3000 6.1000 2.7000
82.1000 6.1000 2.7000
120.9000 6.1000 2.7000
159.7000 6.1000 2.7000
140.9000 6.9000 2.7000
102.1000 6.9000 2.7000
63.3000 6.9000 2.7000
24.5000 6.9000 2.7000
24.9000 7.3000 2.7000
63.7000 7.3000 2.7000
102.5000 7.3000 2.7000
141.3000 7.3000 2.7000
160.9000 5.7000 2.7000
122.1000 5.7000 2.7000
83.3000 5.7000 2.7000
44.5000 5.7000 2.7000
5.3000 5.8333 2.7000
41.3000 8.1000 2.7000
80.1000 8.1000 2.7000
118.9000 8.1000 2.7000
157.7000 8.1000 2.7000
147.7000 4.9000 2.7000
108.9000 4.9000 2.7000
70.1000 4.9000 2.7000
31.3000 4.9000 2.7000
12.5000 8.9000 2.7000
51.3000 8.9000 2.7000
90.1000 8.9000 2.7000
128.9000 8.9000 2.7000
167.7000 8.9000 2.7000
140.9000 4.1000 2.7000
102.1000 4.1000 2.7000
63.3000 4.1000 2.7000
24.5000 4.1000 2.7000
16.1000 9.7000 2.7000
54.9000 9.7000 2.7000
93.7000 9.7000 2.7000
132.5000 9.7000 2.7000
171.3000 9.7000 2.7000
140.5000 3.3000 2.7000
101.7000 3.3000 2.7000
62.9000 3.3000 2.7000
24.1000 3.3000 2.7000
13.3000 10.5000 2.7000
52.1000 10.5000 2.7000
90.9000 10.5000 2.7000
129.7000 10.5000 2.7000
168.5000 10.5000 2.7000
146.5000 2.5000 2.7000
107.7000 2.5000 2.7000
68.9000 2.5000 2.7000
30.1000 2.5000 2.7000
4.1000 11.3000 2.7000
42.9000 11.3000 2.7000
81.7000 11.3000 2.7000
120.5000 11.3000 2.7000
159.3000 11.3000 2.7000
158.9000 1.7000 2.7000
120.1000 1.7000 2.7000
81.3000 1.7000 2.7000
42.5000 1.7000 2.7000
3.7000 1.7000 2.7000
27.7000 12.1000 2.7000
66.5000 12.1000 2.7000
105.3000 12.1000 2.7000
144.1000 12.1000 2.7000
174.5000 3.7000 2.7000
138.5000 0.9000 2.7000
99.7000 0.9000 2.7000
60.9000 0.9000 2.7000
22.1000 0.9000 2.7000
16.9000 0.5000 3.0000
55.7000 0.5000 3.0000
94.5000 0.5000 3.0000
133.3000 0.5000 3.0000
172.1000 0.5000 3.0000
150.9000 12.5000 3.0000
112.1000 12.5000 3.0000
73.3000 12.5000 3.0000
34.5000 12.5000 3.0000
0.5000 7.7000 3.0000
34.1000 1.3000 3.0000
72.9000 1.3000 3.0000
111.7000 1.3000 3.0000
150.5000 1.3000 3.0000
169.3000 11.7000 3.0000
130.5000 11.7000 3.0000
91.7000 11.7000 3.0000
52.9000 11.7000 3.0000
14.1000 11.7000 3.0000
18.5000 2.1000 3.0000
57.3000 2.1000 3.0000
96.1000 2.1000 3.0000
134.9000 2.1000 3.0000
173.3000 2.5000 3.0000
142.9000 10.9000 3.0000
104.1000 10.9000 3.0000
65.3000 10.9000 3.0000
26.5000 10.9000 3.0000
9.3000 2.9000 3.0000
48.1000 2.9000 3.0000
86.9000 2.9000 3.0000
125.7000 2.9000 3.0000
164.5000 2.9000 3.0000
148.9000 10.1000 3.0000
110.1000 10.1000 3.0000
71.3000 10.1000 3.0000
32.5000 10.1000 3.0000
6.5000 3.7000 3.0000
45.3000 3.7000 3.0000
84.1000 3.7000 3.0000
122.9000 3.7000 3.0000
161.7000 3.7000 3.0000
148.5000 9.3000 3.0000
109.7000 9.3000 3.0000
70.9000 9.3000 3.0000
32.1000 9.3000 3.0000
10.1000 4.5000 3.0000
48.9000 4.5000 3.0000
87.7000 4.5000 3.0000
126.5000 4.5000 3.0000
165.3000 4.5000 3.0000
141.7000 8.5000 3.0000
102.9000 8.5000 3.0000
64.1000 8.5000 3.0000
25.3000 8.5000 3.0000
20.1000 5.3000 3.0000
58.9000 5.3000 3.0000
97.7000 5.3000 3.0000
136.5000 5.3000 3.0000
167.3000 7.7000 3.0000
128.5000 7.7000 3.0000
89.7000 7.7000 3.0000
50.9000 7.7000 3.0000
12.1000 7.7000 3.0000
36.5000 6.1000 3.0000
75.3000 6.1000 3.0000
114.1000 6.1000 3.0000
152.9000 6.1000 3.0000
147.7000 6.9000 3.0000
108.9000 6.9000 3.0000
70.1000 6.9000 3.0000
31.3000 6.9000 3.0000
18.1000 7.3000 3.0000
56.9000 7.3000 3.0000
95.7000 7.3000 3.0000
134.5000 7.3000 3.0000
167.7000 5.7000 3.0000
128.9000 5.7000 3.0000
90.1000 5.7000 3.0000
51.3000 5.7000 3.0000
12.5000 5.7000 3.0000
34.5000 8.1000 3.0000
73.3000 8.1000 3.0000
112.1000 8.1000 3.0000
150.9000 8.1000 3.0000
154.5000 4.9000 3.0000
115.7000 4.9000 3.0000
76.9000 4.9000 3.0000
38.1000 4.9000 3.0000
5.7000 8.9000 3.0000
44.5000 8.9000 3.0000
83.3000 8.9000 3.0000
122.1000 8.9000 3.0000
160.9000 8.9000 3.0000
147.7000 4.1000 3.0000
108.9000 4.1000 3.0000
70.1000 4.1000 3.0000
31.3000 4.1000 3.0000
9.3000 9.7000 3.0000
48.1000 9.7000 3.0000
86.9000 9.7000 3.0000
125.7000 9.7000 3.0000
164.5000 9.7000 3.0000
147.3000 3.3000 3.0000
108.5000 3.3000 3.0000
69.7000 3.3000 3.0000
30.9000 3.3000 3.0000
6.5000 10.5000 3.0000
45.3000 10.5000 3.0000
84.1000 10.5000 3.0000
122.9000 10.5000 3.0000
161.7000 10.5000 3.0000
153.3000 2.5000 3.0000
114.5000 2.5000 3.0000
75.7000 2.5000 3.0000
36.9000 2.5000 3.0000
1.7000 6.9000 3.0000
36.1000 11.3000 3.0000
74.9000 11.3000 3.0000
113.7000 11.3000 3.0000
152.5000 11.3000 3.0000
165.7000 1.7000 3.0000
126.9000 1.7000 3.0000
88.1000 1.7000 3.0000
49.3000 1.7000 3.0000
10.5000 1.7000 3.0000
20.9000 12.1000 3.0000
59.7000 12.1000 3.0000
98.5000 12.1000 3.0000
137.3000 12.1000 3.0000
174.5000 10.5000 3.0000
145.3000 0.9000 3.0000
106.5000 0.9000 3.0000
67.7000 0.9000 3.0000
28.9000 0.9000 3.0000
10.1000 0.5000 3.3000
48.9000 0.5000 3.3000
87.7000 0.5000 3.3000
126.5000 0.5000 3.3000
165.3000 0.5000 3.3000
157.7000 12.5000 3.3000
118.9000 12.5000 3.3000
80.1000 12.5000 3.3000
41.3000 12.5000 3.3000
2.5000 12.5000 3.3000
27.3000 1.3000 3.3000
66.1000 1.3000 3.3000
104.9000 1.3000 3.3000
143.7000 1.3000 3.3000
174.1000 9.7000 3.3000
137.3000 11.7000 3.3000
98.5000 11.7000 3.3000
59.7000 11.7000 3.3000
20.9000 11.7000 3.3000
11.7000 2.1000 3.3000
50.5000 2.1000 3.3000
89.3000 2.1000 3.3000
128.1000 2.1000 3.3000
166.9000 2.1000 3.3000
149.7000 10.9000 3.3000
110.9000 10.9000 3.3000
72.1000 10.9000 3.3000
33.3000 10.9000 3.3000
2.1000 3.3000 3.3000
41.3000 2.9000 3.3000
80.1000 2.9000 3.3000
118.9000 2.9000 3.3000
157.7000 2.9000 3.3000
155.7000 10.1000 3.3000
116.9000 10.1000 3.3000
78.1000 10.1000 3.3000
39.3000 10.1000 3.3000
2.9000 7.7000 3.3000
38.5000 3.7000 3.3000
77.3000 3.7000 3.3000
116.1000 3.7000 3.3000
154.9000 3.7000 3.3000
155.3000 9.3000 3.3000
116.5000 9.3000 3.3000
77.7000 9.3000 3.3000
38.9000 9.3000 3.3000
3.7000 5.7000 3.3000
42.1000 4.5000 3.3000
80.9000 4.5000 3.3000
119.7000 4.5000 3.3000
158.5000 4.5000 3.3000
148.5000 8.5000 3.3000
109.7000 8.5000 3.3000
70.9000 8.5000 3.3000
32.1000 8.5000 3.3000
13.3000 5.3000 3.3000
52.1000 5.3000 3.3000
90.9000 5.3000 3.3000
129.7000 5.3000 3.3000
168.5000 5.3000 3.3000
135.3000 7.7000 3.3000
96.5000 7.7000 3.3000
57.7000 7.7000 3.3000
18.9000 7.7000 3.3000
29.7000 6.1000 3.3000
68.5000 6.1000 3.3000
107.3000 6.1000 3.3000
146.1000 6.1000 3.3000
154.5000 6.9000 3.3000
115.7000 6.9000 3.3000
76.9000 6.9000 3.3000
38.1000 6.9000 3.3000
11.3000 7.3000 3.3000
50.1000 7.3000 3.3000
88.9000 7.3000 3.3000
127.7000 7.3000 3.3000
166.5000 7.3000 3.3000
135.7000 5.7000 3.3000
96.9000 5.7000 3.3000
58.1000 5.7000 3.3000
19.3000 5.7000 3.3000
27.7000 8.1000 3.3000
66.5000 8.1000 3.3000
105.3000 8.1000 3.3000
144.1000 8.1000 3.3000
161.3000 4.9000 3.3000
122.5000 4.9000 3.3000
83.7000 4.9000 3.3000
44.9000 4.9000 3.3000
6.1000 4.9000 3.3000
37.7000 8.9000 3.3000
76.5000 8.9000 3.3000
115.3000 8.9000 3.3000
154.1000 8.9000 3.3000
154.5000 4.1000 3.3000
115.7000 4.1000 3.3000
76.9000 4.1000 3.3000
38.1000 4.1000 3.3000
3.3000 8.9000 3.3000
41.3000 9.7000 3.3000
80.1000 9.7000 3.3000
118.9000 9.7000 3.3000
157.7000 9.7000 3.3000
154.1000 3.3000 3.3000
115.3000 3.3000 3.3000
76.5000 3.3000 3.3000
37.7000 3.3000 3.3000
2.5000 7.7000 3.3000
38.5000 10.5000 3.3000
77.3000 10.5000 3.3000
116.1000 10.5000 3.3000
154.9000 10.5000 3.3000
160.1000 2.5000 3.3000
121.3000 2.5000 3.3000
82.5000 2.5000 3.3000
43.7000 2.5000 3.3000
4.9000 2.5000 3.3000
29.3000 11.3000 3.3000
68.1000 11.3000 3.3000
106.9000 11.3000 3.3000
145.7000 11.3000 3.3000
172.5000 1.7000 3.3000
133.7000 1.7000 3.3000
94.9000 1.7000 3.3000
56.1000 1.7000 3.3000
17.3000 1.7000 3.3000
14.1000 12.1000 3.3000
52.9000 12.1000 3.3000
91.7000 12.1000 3.3000
130.5000 12.1000 3.3000
169.3000 12.1000 3.3000
152.1000 0.9000 3.3000
113.3000 0.9000 3.3000
74.5000 0.9000 3.3000
35.7000 0.9000 3.3000
0.5000 0.9000 3.3000